File: XRD data/XRD data.csv
2theta,intensity,sample
10.0,-0.000463342,A
10.2003,0.00545123,A
10.4007,-0.00247484,A
10.601,0.00463001,A
10.8013,0.00315695,A
11.0017,0.000145403,A
11.202,0.00296173,A
11.4023,-0.00533387,A
11.6027,0.00376797,A
11.803,0.00766004,A
12.0033,0.00937262,A
12.2037,-0.00325561,A
12.404,0.00527454,A
12.6043,0.00182948,A
12.8047,-0.00548528,A
13.005,0.0125935,A
13.2053,-0.00118349,A
13.4057,-0.00446729,A
13.606,0.000513879,A
13.8063,-0.000397141,A
14.0067,0.00299789,A
14.207,-0.00558247,A
14.4073,-0.00285911,A
14.6077,-0.0096913,A
14.808,-0.00528188,A
15.0083,0.00375582,A
15.2087,-0.00369224,A
15.409,0.00217834,A
15.6093,-0.0047423,A
15.8097,-0.007724,A
16.01,6.46318e-05,A
16.2104,-0.00530657,A
16.4107,-0.0102748,A
16.611,-0.00158642,A
16.8114,0.00178875,A
17.0117,0.00383824,A
17.212,0.00896515,A
17.4124,0.687309,A
17.6127,0.538549,A
17.813,0.00154835,A
18.0134,0.00136499,A
18.2137,0.00507378,A
18.414,-0.00629174,A
18.6144,0.00278463,A
18.8147,0.00434932,A
19.015,0.00314879,A
19.2154,-0.00248012,A
19.4157,-0.00176369,A
19.616,-0.00109229,A
19.8164,0.00347552,A
20.0167,0.00754474,A
20.217,0.00304608,A
20.4174,-0.00213455,A
20.6177,0.00157003,A
20.818,0.0110887,A
21.0184,5.96312e-06,A
21.2187,0.0025597,A
21.419,-0.00772225,A
21.6194,0.000195811,A
21.8197,-0.00413879,A
22.02,0.00947348,A
22.2204,0.002183,A
22.4207,0.00599162,A
22.621,-0.00410719,A
22.8214,0.000645693,A
23.0217,-0.0107383,A
23.222,-0.0042995,A
23.4224,-0.00136765,A
23.6227,-0.00279586,A
23.823,-0.00429881,A
24.0234,0.00667987,A
24.2237,0.00260847,A
24.424,0.00699617,A
24.6244,0.00800258,A
24.8247,0.00181376,A
25.025,-0.000676759,A
25.2254,0.00351099,A
25.4257,0.000447703,A
25.626,0.00681323,A
25.8264,-0.00140045,A
26.0267,0.00822422,A
26.227,-0.00104451,A
26.4274,-0.00298237,A
26.6277,0.000219994,A
26.828,0.00176567,A
27.0284,5.22558e-05,A
27.2287,-0.00125194,A
27.429,0.00422444,A
27.6294,0.00226168,A
27.8297,0.000689189,A
28.0301,0.00456307,A
28.2304,-0.00541206,A
28.4307,-0.00483486,A
28.6311,0.00303499,A
28.8314,0.0104324,A
29.0317,0.00298736,A
29.2321,0.00280238,A
29.4324,0.00368967,A
29.6327,0.00243594,A
29.8331,0.00176037,A
30.0334,-0.00158248,A
30.2337,-0.0106529,A
30.4341,-0.00626014,A
30.6344,-0.00771672,A
30.8347,0.00541526,A
31.0351,0.150559,A
31.2354,0.558827,A
31.4357,0.0410697,A
31.6361,-0.000977083,A
31.8364,0.00522883,A
32.0367,0.00725637,A
32.2371,0.00101625,A
32.4374,-0.00158951,A
32.6377,0.0143513,A
32.8381,0.00046887,A
33.0384,0.00353331,A
33.2387,0.00418432,A
33.4391,-0.00439261,A
33.6394,0.0124368,A
33.8397,0.00469734,A
34.0401,-0.00307016,A
34.2404,0.00233892,A
34.4407,-0.00741253,A
34.6411,-0.00697911,A
34.8414,-0.000874697,A
35.0417,0.00251163,A
35.2421,-0.00611367,A
35.4424,-0.00671235,A
35.6427,0.0060906,A
35.8431,-0.00828691,A
36.0434,5.65793e-05,A
36.2437,0.00343346,A
36.4441,0.0133291,A
36.6444,-0.00256854,A
36.8447,-0.0110356,A
37.0451,0.00603751,A
37.2454,-0.00615567,A
37.4457,-0.00341581,A
37.6461,-0.00509348,A
37.8464,0.00786096,A
38.0467,0.00101863,A
38.2471,0.000986782,A
38.4474,-0.00416875,A
38.6477,0.00162355,A
38.8481,-0.00379247,A
39.0484,-0.000212183,A
39.2487,0.00858325,A
39.4491,-0.000789696,A
39.6494,0.00741093,A
39.8497,-0.013289,A
40.0501,-0.00027146,A
40.2504,0.00839212,A
40.4508,0.130689,A
40.6511,0.349742,A
40.8514,0.00906214,A
41.0518,-0.000662704,A
41.2521,-0.00104366,A
41.4524,-0.000963694,A
41.6528,0.001401,A
41.8531,0.00230733,A
42.0534,-0.00867945,A
42.2538,-0.00705411,A
42.4541,-0.00138422,A
42.6544,-0.00263534,A
42.8548,0.00319609,A
43.0551,0.00215491,A
43.2554,0.0050689,A
43.4558,-0.0111711,A
43.6561,0.00855809,A
43.8564,0.000861013,A
44.0568,0.00795128,A
44.2571,-0.00106339,A
44.4574,-0.00831931,A
44.6578,0.0041135,A
44.8581,-0.00259369,A
45.0584,-0.00312596,A
45.2588,0.00484308,A
45.4591,0.00256024,A
45.6594,-0.00372908,A
45.8598,0.00538056,A
46.0601,-0.00612453,A
46.2604,0.0022195,A
46.4608,-0.000772857,A
46.6611,-0.00123949,A
46.8614,0.00851005,A
47.0618,-0.00347768,A
47.2621,-0.0024124,A
47.4624,-0.00142428,A
47.6628,0.00554781,A
47.8631,0.00758457,A
48.0634,0.00138259,A
48.2638,-0.00116478,A
48.4641,0.002378,A
48.6644,-3.99921e-05,A
48.8648,0.00434512,A
49.0651,0.00445597,A
49.2654,0.00307078,A
49.4658,0.003378,A
49.6661,0.00177097,A
49.8664,-0.000741296,A
50.0668,-0.0022309,A
50.2671,-0.0125517,A
50.4674,0.00258517,A
50.6678,0.00249612,A
50.8681,0.000497086,A
51.0684,0.00322076,A
51.2688,0.00725636,A
51.4691,0.00782178,A
51.6694,-0.00213444,A
51.8698,-0.000821126,A
52.0701,-0.00737793,A
52.2705,3.07043e-05,A
52.4708,0.00332655,A
52.6711,-0.00261476,A
52.8715,-4.25341e-05,A
53.0718,0.00960579,A
53.2721,-0.00258677,A
53.4725,0.00722777,A
53.6728,-6.62607e-05,A
53.8731,-0.00271188,A
54.0735,0.000290596,A
54.2738,0.00189921,A
54.4741,-0.00163079,A
54.6745,-0.0107333,A
54.8748,-0.00896047,A
55.0751,0.000401396,A
55.2755,-0.000618858,A
55.4758,-0.00213126,A
55.6761,5.46382e-05,A
55.8765,-0.00360727,A
56.0768,-0.00286619,A
56.2771,0.00510598,A
56.4775,0.0043643,A
56.6778,-0.00161598,A
56.8781,0.000540007,A
57.0785,0.00598124,A
57.2788,0.00186385,A
57.4791,-0.00326213,A
57.6795,0.00612083,A
57.8798,-0.000639224,A
58.0801,-0.0171004,A
58.2805,0.00485986,A
58.4808,0.0122851,A
58.6811,0.00021607,A
58.8815,0.00177441,A
59.0818,0.00171661,A
59.2821,0.00348738,A
59.4825,0.00547806,A
59.6828,-0.0019096,A
59.8831,-0.00125838,A
60.0835,0.00561993,A
60.2838,-0.00854085,A
60.4841,0.00236834,A
60.6845,0.0029044,A
60.8848,0.00418955,A
61.0851,9.57528e-05,A
61.2855,0.00592918,A
61.4858,-0.00515761,A
61.6861,-0.00459936,A
61.8865,-0.00250594,A
62.0868,-0.00439738,A
62.2871,-8.75068e-05,A
62.4875,-0.00205199,A
62.6878,0.00580624,A
62.8881,0.00515533,A
63.0885,0.00235616,A
63.2888,0.00813849,A
63.4891,0.00731468,A
63.6895,0.00309458,A
63.8898,-0.00400551,A
64.0902,0.00543842,A
64.2905,-0.00703782,A
64.4908,-0.00212481,A
64.6912,-0.00956065,A
64.8915,-5.94159e-05,A
65.0918,-0.00764822,A
65.2922,-0.00193101,A
65.4925,0.000102656,A
65.6928,8.16103e-06,A
65.8932,0.0007938,A
66.0935,0.00405902,A
66.2938,0.00279402,A
66.4942,-0.00112939,A
66.6945,0.000804225,A
66.8948,0.0074596,A
67.0952,-0.00115022,A
67.2955,0.00924438,A
67.4958,0.000352909,A
67.6962,0.0017517,A
67.8965,-0.000117152,A
68.0968,-0.00704555,A
68.2972,0.0019927,A
68.4975,0.00257514,A
68.6978,-0.00515106,A
68.8982,-0.00457726,A
69.0985,-0.00430497,A
69.2988,-0.00436808,A
69.4992,0.00190687,A
69.6995,-0.0109284,A
69.8998,-0.00273913,A
10.0,-0.00374933,B
10.2003,-0.00527994,B
10.4007,0.00258504,B
10.601,0.00345632,B
10.8013,0.00623024,B
11.0017,0.012301,B
11.202,0.00772704,B
11.4023,-0.002238,B
11.6027,-0.00651112,B
11.803,-0.00201072,B
12.0033,0.00394769,B
12.2037,0.000749166,B
12.404,-0.000823143,B
12.6043,-0.0032853,B
12.8047,0.00203461,B
13.005,-0.004109,B
13.2053,-0.00335006,B
13.4057,0.00660736,B
13.606,0.000396036,B
13.8063,0.00136142,B
14.0067,0.000425615,B
14.207,0.00213454,B
14.4073,-0.000490218,B
14.6077,-0.00182424,B
14.808,-0.00470799,B
15.0083,0.00167679,B
15.2087,0.00139616,B
15.409,-0.0019626,B
15.6093,0.0013571,B
15.8097,0.000912685,B
16.01,-0.00443998,B
16.2104,0.0041031,B
16.4107,-0.00269287,B
16.611,-0.00150284,B
16.8114,-0.00685557,B
17.0117,-0.00623237,B
17.212,0.00486954,B
17.4124,-0.00103036,B
17.6127,-0.0033352,B
17.813,-0.00762352,B
18.0134,-0.00157985,B
18.2137,-0.00135738,B
18.414,-0.00107258,B
18.6144,-0.00393233,B
18.8147,-0.000604644,B
19.015,-0.000735718,B
19.2154,0.0031102,B
19.4157,0.00359826,B
19.616,-0.00368828,B
19.8164,0.00579107,B
20.0167,0.00190066,B
20.217,0.10606,B
20.4174,0.540292,B
20.6177,0.0503718,B
20.818,0.00387804,B
21.0184,-0.00160193,B
21.2187,0.00180239,B
21.419,-0.00354345,B
21.6194,0.00420211,B
21.8197,-0.000740636,B
22.02,-0.00345996,B
22.2204,0.00162748,B
22.4207,-0.00139549,B
22.621,-0.000206892,B
22.8214,0.000720029,B
23.0217,0.00297968,B
23.222,0.00423907,B
23.4224,-0.0029568,B
23.6227,0.00165241,B
23.823,0.00368234,B
24.0234,-0.00366783,B
24.2237,-0.0100299,B
24.424,0.00159295,B
24.6244,-0.000624627,B
24.8247,-0.000665872,B
25.025,0.00420728,B
25.2254,0.00082338,B
25.4257,0.00194467,B
25.626,-0.00924151,B
25.8264,0.00281231,B
26.0267,-0.00242782,B
26.227,-0.00330217,B
26.4274,-0.00296649,B
26.6277,-0.00228476,B
26.828,-0.00544963,B
27.0284,0.00297758,B
27.2287,-0.0067949,B
27.429,-0.00477574,B
27.6294,-0.00458232,B
27.8297,-0.00713533,B
28.0301,0.00202319,B
28.2304,-0.00149163,B
28.4307,-0.00955859,B
28.6311,0.00880586,B
28.8314,0.0022142,B
29.0317,-0.00648822,B
29.2321,-0.00706696,B
29.4324,-0.00460564,B
29.6327,0.00438916,B
29.8331,0.00221301,B
30.0334,-0.00254362,B
30.2337,0.0005687,B
30.4341,0.00574049,B
30.6344,0.0422808,B
30.8347,0.165618,B
31.0351,0.016811,B
31.2354,0.00675052,B
31.4357,-0.00137357,B
31.6361,-0.0066451,B
31.8364,0.00419409,B
32.0367,0.000377325,B
32.2371,-0.00023281,B
32.4374,-0.00444577,B
32.6377,0.000943342,B
32.8381,-0.00985314,B
33.0384,-0.00432811,B
33.2387,-0.00030436,B
33.4391,-0.00343162,B
33.6394,-0.000177528,B
33.8397,-0.00633602,B
34.0401,0.00622252,B
34.2404,0.00952582,B
34.4407,-0.00163298,B
34.6411,0.00685222,B
34.8414,-0.00594266,B
35.0417,-0.000309006,B
35.2421,-0.000582388,B
35.4424,0.00403508,B
35.6427,-0.0104637,B
35.8431,0.000390826,B
36.0434,0.00806323,B
36.2437,0.00332041,B
36.4441,0.00475681,B
36.6444,-0.000684748,B
36.8447,0.00190184,B
37.0451,-0.00378109,B
37.2454,-0.00377126,B
37.4457,-0.0118072,B
37.6461,0.000548867,B
37.8464,-0.00121499,B
38.0467,-0.00313383,B
38.2471,0.0116366,B
38.4474,-0.00964274,B
38.6477,0.00106575,B
38.8481,-0.00185805,B
39.0484,-0.000716199,B
39.2487,-0.00607923,B
39.4491,0.00262762,B
39.6494,0.00285721,B
39.8497,0.00254846,B
40.0501,0.00383102,B
40.2504,0.00230666,B
40.4508,0.00597865,B
40.6511,0.00101491,B
40.8514,0.00596805,B
41.0518,0.00675319,B
41.2521,0.00227996,B
41.4524,-0.00184901,B
41.6528,-0.00244733,B
41.8531,-0.00599148,B
42.0534,-0.00438246,B
42.2538,-0.00522867,B
42.4541,0.000494686,B
42.6544,-0.00413872,B
42.8548,-0.00317972,B
43.0551,0.00107202,B
43.2554,0.00688682,B
43.4558,0.00352339,B
43.6561,-0.00587061,B
43.8564,-0.0028329,B
44.0568,0.0014882,B
44.2571,0.00634573,B
44.4574,-0.0025888,B
44.6578,-0.00319722,B
44.8581,-0.00358673,B
45.0584,0.00625857,B
45.2588,-0.00567492,B
45.4591,0.00614166,B
45.6594,0.00462719,B
45.8598,0.0580466,B
46.0601,1.0,B
46.2604,0.305501,B
46.4608,0.00613588,B
46.6611,-0.00763103,B
46.8614,-0.00047309,B
47.0618,0.00561853,B
47.2621,0.0106419,B
47.4624,0.00131459,B
47.6628,-0.00803585,B
47.8631,-0.00760294,B
48.0634,0.00462003,B
48.2638,0.00660227,B
48.4641,0.00186254,B
48.6644,-0.00394261,B
48.8648,-0.000261306,B
49.0651,-0.0015905,B
49.2654,-0.00506881,B
49.4658,-0.00460855,B
49.6661,0.00494909,B
49.8664,0.00225466,B
50.0668,-0.0049976,B
50.2671,0.000469871,B
50.4674,0.00516502,B
50.6678,0.00233013,B
50.8681,0.000975315,B
51.0684,0.00147125,B
51.2688,-8.64754e-06,B
51.4691,-0.00253826,B
51.6694,0.0022799,B
51.8698,0.00699541,B
52.0701,0.00363282,B
52.2705,-0.00103916,B
52.4708,-0.00415006,B
52.6711,0.00425514,B
52.8715,0.00437068,B
53.0718,-0.00080351,B
53.2721,-0.00125225,B
53.4725,0.004486,B
53.6728,-0.00810783,B
53.8731,0.0012868,B
54.0735,-0.00196814,B
54.2738,-0.0021415,B
54.4741,-0.00576463,B
54.6745,0.00577688,B
54.8748,-0.00404124,B
55.0751,0.00234592,B
55.2755,-0.00313863,B
55.4758,-0.0031716,B
55.6761,-0.00603865,B
55.8765,-0.00702141,B
56.0768,-0.0074049,B
56.2771,0.00529501,B
56.4775,0.00222285,B
56.6778,0.00374675,B
56.8781,0.00502345,B
57.0785,0.00619654,B
57.2788,6.59915e-05,B
57.4791,0.00323629,B
57.6795,-0.00270524,B
57.8798,-0.000142707,B
58.0801,0.0040397,B
58.2805,0.00471711,B
58.4808,0.0129664,B
58.6811,0.00670765,B
58.8815,0.00488262,B
59.0818,0.00623341,B
59.2821,-0.00692793,B
59.4825,0.00673649,B
59.6828,0.00144914,B
59.8831,0.00518266,B
60.0835,-0.00366927,B
60.2838,-0.0025882,B
60.4841,0.000595742,B
60.6845,-0.00532866,B
60.8848,-0.00294046,B
61.0851,-0.00273047,B
61.2855,-0.00185164,B
61.4858,-0.0011974,B
61.6861,-0.00599598,B
61.8865,0.00293309,B
62.0868,0.00252743,B
62.2871,0.00402784,B
62.4875,-0.00208454,B
62.6878,-0.0012276,B
62.8881,0.00299137,B
63.0885,-0.00269843,B
63.2888,0.00644469,B
63.4891,-0.00447307,B
63.6895,-0.00686939,B
63.8898,0.00091244,B
64.0902,-0.00136108,B
64.2905,0.00181135,B
64.4908,2.29916e-05,B
64.6912,-0.00207431,B
64.8915,0.00106139,B
65.0918,-0.00397253,B
65.2922,-0.00384753,B
65.4925,0.000272705,B
65.6928,0.000731959,B
65.8932,-7.05739e-05,B
66.0935,0.00315066,B
66.2938,0.00046794,B
66.4942,-0.00264682,B
66.6945,-8.86064e-05,B
66.8948,0.00293052,B
67.0952,0.00271665,B
67.2955,-0.00372081,B
67.4958,-0.00134656,B
67.6962,-0.00432304,B
67.8965,0.000384535,B
68.0968,-0.00521928,B
68.2972,0.00958439,B
68.4975,0.00546111,B
68.6978,-0.00217971,B
68.8982,-0.00160416,B
69.0985,-0.000361366,B
69.2988,0.00842829,B
69.4992,-0.000348884,B
69.6995,0.0042101,B
69.8998,0.00738153,B
10.0,-0.00077085,mix
10.2003,0.00906906,mix
10.4007,-0.00411732,mix
10.601,0.00770282,mix
10.8013,0.00525213,mix
11.0017,0.000241903,mix
11.202,0.00492735,mix
11.4023,-0.00887382,mix
11.6027,0.00626867,mix
11.803,0.0127438,mix
12.0033,0.015593,mix
12.2037,-0.00541628,mix
12.404,0.00877512,mix
12.6043,0.00304366,mix
12.8047,-0.00912572,mix
13.005,0.0209515,mix
13.2053,-0.00196894,mix
13.4057,-0.00743211,mix
13.606,0.000854927,mix
13.8063,-0.000660713,mix
14.0067,0.00498751,mix
14.207,-0.00928741,mix
14.4073,-0.00475662,mix
14.6077,-0.0161232,mix
14.808,-0.00878732,mix
15.0083,0.00624846,mix
15.2087,-0.00614268,mix
15.409,0.00362404,mix
15.6093,-0.00788964,mix
15.8097,-0.0128502,mix
16.01,0.000107526,mix
16.2104,-0.0088284,mix
16.4107,-0.0170939,mix
16.611,-0.00263928,mix
16.8114,0.0029759,mix
17.0117,0.00638114,mix
17.212,0.00433465,mix
17.4124,0.687893,mix
17.6127,0.541471,mix
17.813,-0.00240937,mix
18.0134,0.00226963,mix
18.2137,0.00844112,mix
18.414,-0.0104674,mix
18.6144,0.00463272,mix
18.8147,0.00723584,mix
19.015,0.00523855,mix
19.2154,-0.00412611,mix
19.4157,-0.0029342,mix
19.616,-0.00181722,mix
19.8164,0.00578214,mix
20.0167,0.0128109,mix
20.217,0.080322,mix
20.4174,0.391783,mix
20.6177,0.0401451,mix
20.818,0.0185124,mix
21.0184,9.92269e-06,mix
21.2187,0.00425851,mix
21.419,-0.0128473,mix
21.6194,0.000325766,mix
21.8197,-0.00688559,mix
22.02,0.0157608,mix
22.2204,0.0036318,mix
22.4207,0.00996809,mix
22.621,-0.00683302,mix
22.8214,0.00107422,mix
23.0217,-0.017865,mix
23.222,-0.00715296,mix
23.4224,-0.00227532,mix
23.6227,-0.00465139,mix
23.823,-0.00715181,mix
24.0234,0.0111131,mix
24.2237,0.00433964,mix
24.424,0.0116393,mix
24.6244,0.0133137,mix
24.8247,0.00301751,mix
25.025,-0.00112591,mix
25.2254,0.00584114,mix
25.4257,0.000744832,mix
25.626,0.011335,mix
25.8264,-0.00232989,mix
26.0267,0.0136824,mix
26.227,-0.00173772,mix
26.4274,-0.00496169,mix
26.6277,0.000365998,mix
26.828,0.00293751,mix
27.0284,8.69366e-05,mix
27.2287,-0.00208283,mix
27.429,0.00702809,mix
27.6294,0.0037627,mix
27.8297,0.00114658,mix
28.0301,0.00759145,mix
28.2304,-0.0090039,mix
28.4307,-0.00804363,mix
28.6311,0.00504924,mix
28.8314,0.0173561,mix
29.0317,0.00497,mix
29.2321,0.00466225,mix
29.4324,0.00613841,mix
29.6327,0.00405262,mix
29.8331,0.00292867,mix
30.0334,-0.00263273,mix
30.2337,-0.017723,mix
30.4341,-0.0102495,mix
30.6344,0.0211112,mix
30.8347,0.134453,mix
31.0351,0.155948,mix
31.2354,0.552743,mix
31.4357,0.0433869,mix
31.6361,-0.00165537,mix
31.8364,0.00869906,mix
32.0367,0.0120722,mix
32.2371,0.00169071,mix
32.4374,-0.00264442,mix
32.6377,0.0238758,mix
32.8381,0.000780046,mix
33.0384,0.00587827,mix
33.2387,0.00696134,mix
33.4391,-0.00730786,mix
33.6394,0.0206907,mix
33.8397,0.00781485,mix
34.0401,-0.00510775,mix
34.2404,0.00389119,mix
34.4407,-0.012332,mix
34.6411,-0.011611,mix
34.8414,-0.00145521,mix
35.0417,0.00417854,mix
35.2421,-0.0101711,mix
35.4424,-0.0111672,mix
35.6427,0.0101328,mix
35.8431,-0.0137867,mix
36.0434,9.41295e-05,mix
36.2437,0.00571216,mix
36.4441,0.0221753,mix
36.6444,-0.00427321,mix
36.8447,-0.0183596,mix
37.0451,0.0100444,mix
37.2454,-0.010241,mix
37.4457,-0.0056828,mix
37.6461,-0.00847389,mix
37.8464,0.0130781,mix
38.0467,0.00169466,mix
38.2471,0.00164168,mix
38.4474,-0.00693544,mix
38.6477,0.00270106,mix
38.8481,-0.00630943,mix
39.0484,-0.000353003,mix
39.2487,0.0142797,mix
39.4491,-0.0013138,mix
39.6494,0.0123294,mix
39.8497,-0.0221085,mix
40.0501,-0.000451694,mix
40.2504,0.0133679,mix
40.4508,0.129579,mix
40.6511,0.347028,mix
40.8514,0.00373161,mix
41.0518,-0.00111243,mix
41.2521,-0.00173631,mix
41.4524,-0.00160327,mix
41.6528,0.00233081,mix
41.8531,0.00383864,mix
42.0534,-0.0144398,mix
42.2538,-0.0117357,mix
42.4541,-0.00230288,mix
42.6544,-0.00438434,mix
42.8548,0.00531725,mix
43.0551,0.00358506,mix
43.2554,0.00843299,mix
43.4558,-0.018585,mix
43.6561,0.0142379,mix
43.8564,0.00143244,mix
44.0568,0.0132283,mix
44.2571,-0.00176913,mix
44.4574,-0.0138406,mix
44.6578,0.00684352,mix
44.8581,-0.00431506,mix
45.0584,-0.00520057,mix
45.2588,0.00805731,mix
45.4591,0.00425941,mix
45.6594,-0.00615503,mix
45.8598,0.0537573,mix
46.0601,0.73107,mix
46.2604,0.22532,mix
46.4608,-8.82351e-05,mix
46.6611,-0.002062,mix
46.8614,0.014158,mix
47.0618,-0.00578573,mix
47.2621,-0.00401344,mix
47.4624,-0.00236954,mix
47.6628,0.00922974,mix
47.8631,0.0126182,mix
48.0634,0.00230017,mix
48.2638,-0.00193782,mix
48.4641,0.00395621,mix
48.6644,-6.65338e-05,mix
48.8648,0.00722887,mix
49.0651,0.00741327,mix
49.2654,0.00510878,mix
49.4658,0.00561989,mix
49.6661,0.00294631,mix
49.8664,-0.00123327,mix
50.0668,-0.00371149,mix
50.2671,-0.0208819,mix
50.4674,0.00430088,mix
50.6678,0.00415273,mix
50.8681,0.000826989,mix
51.0684,0.00535829,mix
51.2688,0.0120722,mix
51.4691,0.0130129,mix
51.6694,-0.00355102,mix
51.8698,-0.00136609,mix
52.0701,-0.0122745,mix
52.2705,5.1082e-05,mix
52.4708,0.00553429,mix
52.6711,-0.0043501,mix
52.8715,-7.07629e-05,mix
53.0718,0.0159809,mix
53.2721,-0.00430354,mix
53.4725,0.0120246,mix
53.6728,-0.000110236,mix
53.8731,-0.00451168,mix
54.0735,0.000483457,mix
54.2738,0.00315967,mix
54.4741,-0.0027131,mix
54.6745,-0.0178567,mix
54.8748,-0.0149073,mix
55.0751,0.000667792,mix
55.2755,-0.00102958,mix
55.4758,-0.00354572,mix
55.6761,9.09002e-05,mix
55.8765,-0.00600131,mix
56.0768,-0.00476841,mix
56.2771,0.00849469,mix
56.4775,0.00726077,mix
56.6778,-0.00268846,mix
56.8781,0.000898395,mix
57.0785,0.00995083,mix
57.2788,0.00310084,mix
57.4791,-0.00542713,mix
57.6795,0.0101831,mix
57.8798,-0.00106346,mix
58.0801,-0.0284495,mix
58.2805,0.00808522,mix
58.4808,0.0204383,mix
58.6811,0.000359469,mix
58.8815,0.00295203,mix
59.0818,0.00285588,mix
59.2821,0.00580187,mix
59.4825,0.00911371,mix
59.6828,-0.00317696,mix
59.8831,-0.00209354,mix
60.0835,0.00934973,mix
60.2838,-0.0142092,mix
60.4841,0.00394015,mix
60.6845,0.00483198,mix
60.8848,0.00697004,mix
61.0851,0.000159301,mix
61.2855,0.00986423,mix
61.4858,-0.00858058,mix
61.6861,-0.00765183,mix
61.8865,-0.00416906,mix
62.0868,-0.00731581,mix
62.2871,-0.000145583,mix
62.4875,-0.00341384,mix
62.6878,0.00965968,mix
62.8881,0.00857679,mix
63.0885,0.00391988,mix
63.2888,0.0135398,mix
63.4891,0.0121692,mix
63.6895,0.00514838,mix
63.8898,-0.00666386,mix
64.0902,0.00904775,mix
64.2905,-0.0117086,mix
64.4908,-0.00353499,mix
64.6912,-0.0159058,mix
64.8915,-9.88487e-05,mix
65.0918,-0.0127241,mix
65.2922,-0.00321258,mix
65.4925,0.000170786,mix
65.6928,1.35773e-05,mix
65.8932,0.00132062,mix
66.0935,0.00675288,mix
66.2938,0.00464833,mix
66.4942,-0.00187893,mix
66.6945,0.00133797,mix
66.8948,0.0124103,mix
67.0952,-0.00191359,mix
67.2955,0.0153796,mix
67.4958,0.000587125,mix
67.6962,0.00291425,mix
67.8965,-0.000194903,mix
68.0968,-0.0117215,mix
68.2972,0.00331521,mix
68.4975,0.0042842,mix
68.6978,-0.00856968,mix
68.8982,-0.00761507,mix
69.0985,-0.00716207,mix
69.2988,-0.00726707,mix
69.4992,0.0031724,mix
69.6995,-0.0181813,mix
69.8998,-0.00455701,mix
70.0,0.00320533,mix